# Header: Project1::CPTi_with nano indents coarsened cleaned-Dil::All data::Grain Size   6/12/2013
# 
# Column 1: Integer identifying grain
# Column 2-4: Average orientation (phi1, PHI, phi2) in degrees
# Column 5-6: Average Position (x, y) in microns
# Column 7: Average Image Quality (IQ)
# Column 8: Average Confidence Index (CI)
# Column 9: Average Fit (degrees)
# Column 10: An integer identifying the phase
#           0 -  Titanium (Alpha)
# Column 11: Edge grain (1) or interior grain (0)
# Column 12: Diameter of grain in microns
     1  218.940   88.044  134.70    44.372    69.413 3183.9  0.782  0.61   0 1    125.44 
     2  154.794   83.628  220.45   100.049    46.412 3171.3  0.687  0.59   0 1     51.82 
     3  280.587   88.789   74.03   160.802    34.474 3109.6  0.845  0.57   0 1     86.52 
     4  347.078   83.506   38.95   218.624     7.364 3170.2  0.581  0.77   0 1     32.04 
     5  278.429   77.236   84.64   273.318    30.352 2912.0  0.733  0.58   0 1     67.74 
     6  162.574   76.818  224.29   346.723    37.819 3181.2  0.645  0.86   0 1     91.04 
     7  154.496   84.462  228.58   468.383    61.389 3228.9  0.795  0.58   0 1    129.20 
     8  153.329   86.656  213.44   552.615    52.710 2972.8  0.547  0.84   0 1     96.26 
     9  214.606   87.026  161.95   596.606    14.184 3183.4  0.784  0.65   0 1     48.49 
    10  332.565   80.804   41.51   642.883    69.796 3252.6  0.625  0.59   0 1    117.40 
    11  197.584   58.953  186.79   692.236    37.322 2781.2  0.682  0.62   0 1     41.47 
    12  105.243   89.154  272.74   226.167    54.439 3068.3  0.789  0.66   0 0     65.15 
    13  241.502   83.262  100.26   389.844    86.657 2910.4  0.810  0.73   0 0     77.06 
    14  201.604   67.112  141.14   129.759    94.005 3065.7  0.628  0.62   0 0     77.75 
    15  333.135   87.274   26.59   287.240   107.752 2971.0  0.682  0.80   0 0     93.09 
    16  344.569   80.941   26.95   208.942   107.642 3060.9  0.719  1.05   0 0     63.83 
    17  164.085   83.536  195.11   388.751   201.976 3198.2  0.615  0.73   0 0    184.42 
    18  353.348   56.555  348.02   563.523   132.894 2925.2  0.757  0.71   0 0     59.36 
    19  324.665   87.065   46.77   677.319   134.600 3057.1  0.673  0.64   0 1     50.48 
    20   36.403   79.016  313.00   490.546   155.628 3122.3  0.843  0.58   0 0     92.48 
    21  179.496   79.173  207.03   186.727   186.698 3152.0  0.581  0.86   0 0    170.09 
    22  199.024   70.548  136.73     6.234   138.519 2943.4  0.591  0.77   0 1     23.03 
    23  212.912   69.439  138.07   584.712   175.623 2964.0  0.641  0.83   0 0     83.89 
    24  147.637   78.204  187.09   661.979   159.170 2994.6  0.742  0.76   0 1     43.75 
    25  151.209   83.709  191.33    42.954   208.479 3349.8  0.798  0.77   0 1    114.13 
    26  168.019   82.053  179.83   648.188   228.754 2864.6  0.723  0.71   0 1    116.27 
    27  339.245   86.532   46.61   540.208   213.914 3043.1  0.612  0.64   0 0     32.06 
    28  221.280   65.840  131.30   112.416   241.607 3076.0  0.560  0.76   0 0     53.08 
    29  213.596   53.144  176.34   561.805   244.796 2851.7  0.514  0.86   0 0     61.15 
    30  345.881   85.450   16.38   290.960   269.297 3095.8  0.671  0.74   0 0     78.71 
    31  338.477   68.949  358.22   515.653   299.505 2776.1  0.566  0.76   0 0    129.74 
    32  120.846   75.720  213.23   211.877   332.211 3081.6  0.868  0.59   0 0    179.39 
    33   24.875   85.231  342.52    10.816   292.425 3134.9  0.732  0.62   0 1     42.96 
    35  185.502   82.151  191.89    72.444   293.595 3125.0  0.585  0.61   0 0     79.23 
    36  338.785   88.698  355.16   333.455   292.318 2948.5  0.653  0.70   0 0     40.99 
    37  357.644   84.850   13.75   616.185   307.010 2900.6  0.720  0.76   0 0     72.86 
    38  215.462   82.212  120.62   673.818   333.767 2964.0  0.714  0.61   0 1     84.60 
    39   17.447   72.715  314.07   409.106   365.759 3322.9  0.666  0.76   0 0    165.71 
    40  320.743   61.115   58.72    39.394   324.996 2875.0  0.552  0.69   0 0     35.35 
    41   30.675   88.245  344.20     9.248   353.236 3132.3  0.719  0.64   0 1     38.27 
    42   11.897   77.011  324.29    96.545   423.508 3120.8  0.680  0.75   0 1    188.83 
    43    7.108   71.888  359.29   586.383   385.281 2806.8  0.724  0.72   0 0    105.82 
    44  357.303   73.518   15.35   513.061   395.152 3062.9  0.661  0.92   0 0     53.17 
    45  168.679   73.622  176.13   315.260   412.975 2919.9  0.750  0.68   0 0     72.33 
    46  185.633   86.158  169.39   684.566   394.820 2775.0  0.597  0.80   0 1     29.64 
    47  324.913   72.075   35.16   645.920   422.936 2700.8  0.655  0.80   0 0     56.23 
    49  201.556   78.198  164.21   682.808   447.027 2832.9  0.670  0.73   0 1     58.26 
    50  161.885   70.100  224.66   255.451   465.660 3015.9  0.522  0.93   0 0     86.66 
    51  317.219   84.132   21.48   523.526   464.830 3004.0  0.717  0.72   0 0    110.68 
    52  182.960   83.280  173.05   350.848   518.920 2988.5  0.675  0.68   0 0    165.25 
    53  338.275   91.245    8.43   611.380   455.888 2967.7  0.759  0.72   0 0     59.83 
    54  216.043   82.208  158.84   437.081   519.541 2987.8  0.717  0.94   0 0     74.04 
    55  197.856   58.538  179.92   165.458   535.248 2945.0  0.634  0.69   0 0    145.53 
    56    4.335   88.292  345.04   654.790   519.393 2983.1  0.544  0.69   0 1     92.95 
    57  149.645   78.771  233.02   478.944   498.818 3010.5  0.753  0.70   0 0     51.87 
    58  199.594   88.295  170.93   607.255   494.766 2742.8  0.602  0.73   0 0     44.09 
    59  335.731   85.296   36.16    32.623   530.234 3078.9  0.628  0.88   0 1     75.48 
    60  150.520   77.926  180.21   527.335   583.202 3055.5  0.676  0.78   0 0    160.24 
    61  258.432   73.572  128.40   256.244   537.275 3070.4  0.749  0.64   0 0     40.93 
    62   57.782   85.668  282.81   645.850   579.771 2912.1  0.811  0.61   0 0     71.00 
    63  199.555   79.267  132.69    95.600   630.768 3187.9  0.581  0.66   0 1    165.27 
    64  179.691   81.549  185.79   267.601   628.257 2892.5  0.625  0.72   0 0    131.51 
    65  180.399   80.902  178.90   666.785   636.012 2867.0  0.623  0.66   0 1     90.45 
    66  143.437   71.510  216.55   416.374   643.136 2867.3  0.679  0.73   0 0    117.28 
    67  194.734   76.699  158.86   606.919   633.580 2915.5  0.732  0.83   0 0     38.72 
    68   57.490   88.768  323.38   577.270   684.881 2932.6  0.855  0.56   0 0     68.46 
    69  145.618   79.590  212.35   378.474   679.118 2952.3  0.695  0.64   0 0     61.39 
    70   18.081   60.088  351.48   514.831   679.153 2763.2  0.738  0.75   0 0     67.25 
    71  353.386   80.942  336.77    33.074   702.526 3127.3  0.526  0.84   0 1     87.34 
    72   28.481   78.726  358.76   642.631   737.908 2834.3  0.742  0.70   0 1    132.26 
    73  183.655   69.611  196.20   219.882   710.486 2904.5  0.562  0.87   0 0    103.73 
    74  186.252   83.155  183.10   311.186   719.479 2755.6  0.624  0.71   0 0     83.62 
    76   23.923   68.623  350.21   508.673   720.431 2830.3  0.691  0.88   0 0     56.50 
    77  159.808   86.736  220.54   392.033   764.732 2989.6  0.572  0.94   0 0    130.31 
    78  194.482   87.379  136.43   107.475   792.010 3018.8  0.544  0.74   0 0    168.56 
    79  159.186   88.456  214.01   473.791   748.751 2756.1  0.741  0.79   0 0     61.87 
    80  212.849   80.388  152.19   550.864   763.661 2783.4  0.573  0.97   0 0     75.26 
    81  185.566   64.681  204.36   225.099   774.320 2814.6  0.679  0.71   0 0     70.33 
    82   28.400   81.365  354.18     5.877   781.515 3062.8  0.665  0.96   0 1     29.36 
    83  192.099   83.532  182.38   303.006   811.679 2775.4  0.520  0.78   0 0    104.79 
    84  140.673   66.119  198.03   487.792   842.820 2907.2  0.855  0.66   0 0    140.36 
    85  346.497   52.723    2.80   695.189   795.544 2645.1  0.733  0.81   0 1     17.76 
    86   21.167   87.498  352.06   589.744   827.665 2725.2  0.601  0.77   0 0     76.06 
    87  348.637   82.687  355.67   202.758   825.366 2681.2  0.510  0.85   0 0     66.44 
    88  178.228   66.538  203.88   649.415   820.307 2729.5  0.555  0.92   0 0     44.35 
    89  188.599   86.076  198.07    36.894   849.978 3061.5  0.571  0.67   0 1     81.87 
    90  340.665   83.670  356.34   682.119   860.038 2706.9  0.601  0.82   0 1     67.61 
    91  203.666   73.177  178.50   227.357   913.295 2662.4  0.503  0.77   0 0    155.78 
    92  332.889   83.793    1.53   395.297   859.771 2716.6  0.562  0.70   0 0     55.43 
    93    6.576   57.178    6.74   637.208   871.797 2797.2  0.759  0.98   0 0     60.51 
    94  165.152   71.503  218.26   365.306   933.437 2939.0  0.615  0.88   0 0    154.59 
    95   32.839   83.463  353.38   588.697   899.579 2989.7  0.720  0.79   0 0     65.19 
    96   29.650   88.670  358.51   566.542   876.174 2583.7  0.723  0.71   0 0     24.65 
    97   39.786   75.309  302.77   546.981   888.613 2848.8  0.790  0.76   0 0     23.69 
    98  322.578   58.646   64.42    99.361   902.916 2673.6  0.453  0.95   0 0     36.65 
    99    9.700   82.813  349.98    43.148   924.170 2844.5  0.716  0.66   0 1     91.72 
   100  218.827   84.444  112.17   527.701   907.441 2712.6  0.657  0.73   0 0     34.49 
   101  149.100   66.581  223.46   142.515   941.945 2839.8  0.780  0.74   0 0     65.81 
   102  334.754   79.979   43.11   666.693   952.065 2946.1  0.558  0.75   0 1     88.69 
   103  185.458   66.017  187.82   625.411   922.581 2585.1  0.510  0.95   0 0     38.04 
   104   34.354   69.052  348.36   484.916   933.631 2948.1  0.836  0.66   0 0     58.43 
   105   26.905   77.448  315.78   540.288   958.740 3159.2  0.765  0.68   0 0     77.17 
   106  327.283   77.164   15.64    92.677   986.839 3006.1  0.561  0.73   0 0     96.71 
   107  184.421   65.655  198.97   593.424   951.370 2709.7  0.499  0.84   0 0     44.45 
   108   28.880   82.482  314.71   468.046   980.134 3043.6  0.639  0.59   0 0     66.24 
   109   27.297   90.524  354.88    29.738  1037.375 2982.7  0.638  0.87   0 1     99.82 
   110  132.321   76.939  213.18   612.037  1002.062 2815.4  0.766  0.74   0 0     81.39 
   111  201.259   61.269  155.62   288.155  1019.972 2884.2  0.736  0.86   0 0     88.06 
   112  189.876   85.867  165.41   202.074  1016.099 2864.9  0.556  0.81   0 0     80.03 
   113  159.428   61.073  177.93   431.723  1023.242 2954.4  0.711  0.77   0 0     70.31 
   114  188.623   74.634  171.94   138.425  1026.636 3070.5  0.636  0.70   0 0     53.50 
   115   33.648   71.872  350.43   482.644  1019.174 2745.4  0.782  0.82   0 0     40.51 
   116   27.841   77.974  331.70   523.465  1023.768 2721.8  0.531  0.97   0 0     65.21 
   117  173.323   65.163  166.68   692.873  1005.200 2549.8  0.420  1.11   0 1     19.70 
   118  329.971   74.668   19.91   673.389  1046.193 2765.5  0.652  0.82   0 1     70.56 
   119   27.587   79.100  321.68   564.912  1039.084 3050.5  0.469  0.89   0 0     50.79 
   120  175.696   64.821  168.57   376.128  1065.259 2890.7  0.567  0.94   0 1    121.49 
   121  190.551   80.106  165.03    94.458  1068.939 2929.2  0.601  0.78   0 1     64.20 
   122  158.630   87.437  228.35   622.416  1072.934 3019.3  0.706  0.82   0 1     73.53 
   123   27.498   70.244  331.18   201.511  1075.439 2777.3  0.830  0.65   0 1    103.52 
   124   33.445   75.792  319.92   525.211  1079.402 3000.0  0.582  0.91   0 1     78.68 
   125  197.532   72.687  181.98   689.895  1092.674 2502.3  0.402  1.01   0 1     21.11 
